Folder: Advanced-FTIR-XRD-Analyzer-with-Fourier-Transform-

Note: README.md
# Advanced-FTIR-XRD-Analyzer-with-Fourier-Transform-
Advanced FTIR/XRD Analyzer with Fourier Transform &amp; Machine Learning Integration

File: FTIR.csv
Created as New Dataset,ABS black tube
cm-1,%T
4000.00,97.40
3988.00,97.42
3976.00,97.41
3964.00,97.41
3952.00,97.42
3940.00,97.41
3928.00,97.41
3916.00,97.40
3904.00,97.41
3892.00,97.40
3880.00,97.42
3868.00,97.42
3856.00,97.43
3844.00,97.39
3832.00,97.38
3820.00,97.38
3808.00,97.35
3796.00,97.36
3784.00,97.35
3772.00,97.33
3760.00,97.34
3748.00,97.34
3736.00,97.33
3724.00,97.31
3712.00,97.33
3700.00,97.31
3688.00,97.29
3676.00,97.23
3664.00,97.13
3652.00,97.07
3640.00,97.10
3628.00,97.15
3616.00,97.19
3604.00,97.24
3592.00,97.27
3580.00,97.26
3568.00,97.24
3556.00,97.21
3544.00,97.17
3532.00,97.18
3520.00,97.19
3508.00,97.22
3496.00,97.24
3484.00,97.26
3472.00,97.27
3460.00,97.26
3448.00,97.27
3436.00,97.28
3424.00,97.28
3412.00,97.30
3400.00,97.31
3388.00,97.31
3376.00,97.31
3364.00,97.32
3352.00,97.31
3340.00,97.31
3328.00,97.31
3316.00,97.31
3304.00,97.31
3292.00,97.31
3280.00,97.30
3268.00,97.29
3256.00,97.30
3244.00,97.28
3232.00,97.29
3220.00,97.27
3208.00,97.25
3196.00,97.26
3184.00,97.26
3172.00,97.24
3160.00,97.22
3148.00,97.25
3136.00,97.24
3124.00,97.19
3112.00,96.83
3100.00,96.59
3088.00,95.38
3076.00,95.50
3064.00,94.10
3052.00,95.14
3040.00,94.58
3028.00,90.94
3016.00,94.21
3004.00,93.93
2992.00,95.28
2980.00,94.95
2968.00,93.78
2956.00,91.44
2944.00,88.86
2932.00,86.03
2920.00,84.87
2908.00,87.91
2896.00,90.37
2884.00,92.04
2872.00,92.65
2860.00,91.89
2848.00,91.49
2836.00,93.97
2824.00,95.59
2812.00,96.10
2800.00,96.32
2788.00,96.45
2776.00,96.57
2764.00,96.65
2752.00,96.69
2740.00,96.70
2728.00,96.71
2716.00,96.73
2704.00,96.74
2692.00,96.76
2680.00,96.75
2668.00,96.75
2656.00,96.66
2644.00,96.61
2632.00,96.58
2620.00,96.63
2608.00,96.61
2596.00,96.65
2584.00,96.66
2572.00,96.71
2560.00,96.71
2548.00,96.70
2536.00,96.72
2524.00,96.71
2512.00,96.71
2500.00,96.76
2488.00,96.77
2476.00,96.81
2464.00,96.80
2452.00,96.78
2440.00,96.81
2428.00,96.84
2416.00,96.85
2404.00,96.89
2392.00,96.90
2380.00,96.89
2368.00,96.90
2356.00,96.81
2344.00,96.79
2332.00,96.74
2320.00,96.43
2308.00,96.56
2296.00,96.58
2284.00,96.43
2272.00,96.51
2260.00,96.44
2248.00,95.48
2236.00,92.22
2224.00,96.08
2212.00,96.35
2200.00,96.37
2188.00,96.25
2176.00,96.39
2164.00,96.07
2152.00,96.89
2140.00,96.89
2128.00,96.96
2116.00,96.68
2104.00,96.65
2092.00,96.77
2080.00,96.57
2068.00,96.60
2056.00,96.57
2044.00,96.41
2032.00,96.47
2020.00,96.53
2008.00,96.50
1996.00,96.41
1984.00,96.04
1972.00,96.11
1960.00,95.94
1948.00,95.86
1936.00,96.32
1924.00,96.61
1912.00,96.59
1900.00,96.36
1888.00,96.11
1876.00,96.02
1864.00,96.39
1852.00,96.69
1840.00,96.66
1828.00,96.40
1816.00,96.22
1804.00,96.14
1792.00,96.52
1780.00,96.57
1768.00,96.46
1756.00,96.17
1744.00,95.21
1732.00,90.45
1720.00,91.00
1708.00,95.03
1696.00,95.95
1684.00,96.01
1672.00,96.05
1660.00,96.20
1648.00,96.20
1636.00,96.06
1624.00,96.04
1612.00,95.46
1600.00,91.55
1588.00,94.91
1576.00,95.92
1564.00,96.34
1552.00,96.15
1540.00,96.16
1528.00,96.41
1516.00,96.31
1504.00,95.20
1492.00,81.44
1480.00,94.40
1468.00,93.52
1456.00,78.13
1444.00,82.17
1432.00,89.74
1420.00,93.33
1408.00,94.10
1396.00,93.72
1384.00,93.12
1372.00,91.51
1360.00,91.26
1348.00,91.38
1336.00,91.81
1324.00,91.95
1312.00,91.91
1300.00,92.51
1288.00,93.02
1276.00,93.05
1264.00,92.84
1252.00,93.48
1240.00,93.80
1228.00,93.94
1216.00,93.25
1204.00,92.46
1192.00,92.14
1180.00,90.63
1168.00,90.40
1156.00,89.39
1144.00,93.44
1132.00,94.86
1120.00,94.24
1108.00,93.79
1096.00,93.43
1084.00,92.39
1072.00,89.70
1060.00,90.91
1048.00,92.26
1036.00,90.91
1024.00,88.49
1012.00,90.73
1000.00,91.19
988.00,91.04
976.00,88.86
964.00,84.02
952.00,91.38
940.00,92.77
928.00,93.28
916.00,89.87
904.00,90.63
892.00,93.65
880.00,93.70
868.00,94.19
856.00,93.93
844.00,92.66
832.00,94.26
820.00,94.30
808.00,94.00
796.00,93.52
784.00,91.16
772.00,81.27
760.00,64.74
748.00,75.54
736.00,84.74
724.00,90.82
712.00,81.64
700.00,33.91
688.00,71.09
676.00,81.22
664.00,84.71
652.00,87.03
650.00,87.18